Folder: SC-DBSCAN/DataSets/T2800L10N10000

Note: README.md
# SC-DBSCAN
SC-DBSCAN is a scalable and deterministic density-based clustering  algorithm  inspired  from  DBSCAN

File: xrd
890001 1235 1449 4489 5021 5527 5599 5764 7653  8192
890013 125 419 916 1058 1236 3280 3482 4203 4996 6066 6627 8030 8521  9852
890025 1094 2129 2349  4661
890037 403 860 889 1898 1978 3620 4594 4931 5823 6032 6195 6701 7550 7985 8231 9359 9433  9775
890049 39 2377 2512 3524 3582 6839 8903  9784
890061 1763 2039 2669 2878 3196 5671 6790 7884 9572  9698
890073 1893 2380 2929 3258 3507 4012 4528 4585 5009 5391 5481 5963 6317 6704 8461  8467
890085 485 545 2045 2392 2673 3316 3543 4296 4349 4871 4918 5174 5408 5788  7438
890097 908 946 1099 3159 4052 6012 7132 7616  9630
890109 2385 3574 4344 5152 5326 5458 5572 5595 6322 7613 8460  9199
890121 1052 1229 1272 2147 3808 4142 4414 4811 5442 5629 6029  9544
890133 1829 2435 3034 5490 6500 8013 8765 8851  9275
890145 18 118 1403 1616 5298 6194 6539 7205  8289
890157 160 2512 2752 3730 4079 6839 7328 8980 9737  9784
890169 364 2341 3591 4812 7557 7913 8119 8180 8214 8835 9427 9756  9777
890181 526 741 768 903 1754 2955 4476 4565 4703 5653 6099 6430 7808 9264 9662  9848
890193 286 618 649 850 1319 1883 2159 2508 6049 6113 6130 6797 7307 8016  8067
890205 334 549 595 1333 2120 3437 3821 4493 4911 6430 6663 7581 8014 8097  9741
890217 502 2608 4887 4898 6575  8217
890229 90 144 1259 2846 3025 3352 3551 8610  9280
890241 1022 1052 1215 2711 2742 3573 4805 5593 5990 6491 7577 8799  9460
890253 690 1702 2712 3050 4527 5153 5163 5478 5690 7046 7309 7420  9726
890265 295 3822 4363 4665 5574 5601 6650 7078 7648 8035  9737
890277 638 7177 7355  9666
890289 1201 1489 6811 9058  9754
890301 992 3149 3463  8642
890313 2465 2854 3201 3301 4405 4569 5490 6775 7861 8959  9102
890325 1785 2883 8424 8774  8890
890337 1918 4153 6668 7177  7908
890349 245 865 1348 2068 2919 3656 3693 5434 5861 5944 6606 6661 7694 8718  9223
890361 813 1456 2009 2134 2489 2687 3587 4031 4511 5802 6263 8709 8862 8974 9330 9515  9578
890373 895 1989 2232 2324 2752 4762 6128 7143  9683
890385 3129 3254 4322 6288  6664
890397 1129 1928 2778 4654 6586 7330 7599  9181
890409 91 4020 4114 4247 5342 6284 7645 8443 8462  8672
890421 653 2420 3355 4951 5653 5721 5976 8172  9480
890433 478 500 1862 2362 3156 3413 4132 5405 5927 6564 7920  8072
890445 822 830 2328 3334 4756 5153 7514 7821 9546  9783
890457 421 6202  6647
890469 601 3387 3708 3837 3844 7258 7483 8323 8538 8821 9063  9310
890481 406 1025 1038 2851 3887 4344 5002 6427 9036 9123 9757  9957
890493 3086 8536 8909  9940
890505 704 993 2457 4411 5174 6643 7070 7785 9120  9624
890517 850 1645 2167 2716 4118 6313  7722
890529 294 378 601 968 1920 1972 2196 3122 4187 4238 4645 4887 5523 5543 6411 7574 8821 9191 9476  9662
890541 891 1420 2147 2996 6049 6572 7866 8704 8747  8781
890553 1074 1896 3792 4217 5537 5809 6074 6622 6918 7159  8501
890565 875 1427 3188 3471 4364 5098 6839 7184 7557 8006 8190  9833
890577 230 577 1062 2182 4757 6525  8989
890589 1398 1659 3463 4126 5699 6990 7038 8706  9883
890601 334 595 3821 4226 5348 5613 6243 6663 7646 8014 8126  9018
890613 2351 4951 5653 8399 8920  8936
890625 599 1292 2935 3071 5064 6393 7193 7491 7812 9184  9508
890637 1883 3387 4268 5823 6135 6291 6856 7187 8462 9460  9867
890649 1308 2195 2993 4674 9090  9819
890661 755 1409 4427 4976 5160 5715 6489 7530 7685  9272
890673 233 1531 3966 4592 5718 6576 6727 7046 7509  8557
890685 1567 1635 6329 7875  9382
890697 844 1477 3196 5601 5960 6847 7074 7356 8236 8871  9096
890709 776 898 1075 1127 2188 2409 2964 5080 6928 7665 7983 8419 9430  9676
890721 810 1474 4407 4631 4945 6628 7420 7674  7986
890733 72 188 1702 2586 3448 3583 4032 4525 5150 8135 8338  8382
890745 2849 3591 5351 7313  9460
890757 2351 2511 6857 9026 9040 9303  9488
890769 143 558 970 1409 1885 2628 4015 4320 5965 6699 8424 9225 9630  9974
890781 104 419 552 1252 3280 3503 6293 6627 7092  8583
890793 1667 2130 2461 2626 5170 7028 7813 8372  9806
890805 419 2263 2502 3224 3280 4801 6612  6627
890817 3980 5193 8521  9584
890829 1989 2206 5845 7154  9247
890841 335 441 1048 2559 5586 5707 6269 7046 7053 7572 7929  8915
890853 1 14 261 1128 2450 3806 5877 6311  8649
890865 195 202 292 1962 1983 2563 2885 3195 3275 3483 4539 4644 5008 5676 6155 6328 7147 7847  8526
890877 554 744 4412 5366 5726 6470 7600 8722 9197 9245  9688
890889 372 690 4259 4484 6641 7387 7401  8590
890901 275 959 1511 2226 3900 5509 5548 6188 7877  8762
890913 419 1023 1756 3280 6627 6935 7070 7286 8166 8379  9812
890925 2834 3151 4752 4912 5165 5838 5847 6434 6806 8208 8757  9123
890937 2221 5070 5335 7787 8075 8790  9630
890949 461 1301 1421 1821 2476 3002 3100 3732 4665 6077 8226  9789
890961 1721 3231 3843 5739 7430  8210
890973 1372 3149 3176 4303 5249 5700 7187 8277 8333  8890
890985 662 1088 1437 2219 2356 2626 2835 5129 6229  8299
890997 776 812 893 3383 5427 7040 7700 8016 8264  9345
891009 60 563 2075 2908 3174 3560 3881 5027 6953 7055  9983
891021 108 2131 2700 3696 5073 6207 6393 6503 6953 7380 8093 8190 8589 9240 9500  9709
891033 113 191 1141 1396 4551 5400 5687 6376  7427
891045 545 2206 2363 2694 3138 3734 5025 5823 6236 6521 8515 8641 9731 9804  9943
891057 1473 2337 3508 3694 4249 4350 5818  9666
891069 512 886 1673 4963 5006 5335 6270 7668 8614  9417
891081 60 430 875 3696 5656 5765 5867 6503 6856 7494 9057 9426  9709
891093 364 1437  8653
891105 374 434 792 2505 2849 3301 4200 4594 5211 8226 9789  9866
891117 3025 3352 3551 5608 6723 6981 7544 7695  8289
891129 652 1094 1785 4357 5049 5169 8313 8937 9855  9984
891141 605 1176 3394 3526 4498 5384 6636 8214  9847
891153 531 1807 4248 4983 5191 5288 6521 6591 6676 6942 7009 8346 8474  9834
891165 301 609 1015 1476 1620 2993 5254 6262 6385 8368  9662
891177 709 1771 4830 4885 6727 7639  9533
891189 895 4218 4442 5223 6525 7111  7899
891201 4295 5484  5686
891213 1630 2017 5669 6291  9612
891225 958 966 2195 4429 6120 7119 8149  9771
891237 448 1020 1794 1888 2881 4960 7209 7329 8801  9488
891249 110 1372 2669 3108 3196  7233
891261 1737 3966 5030 5037 6154 6519  6879
891273 1476 2899 2977 3232 3305 3709 5328 5784 6558 7685 7874 8427 8500 8974  9253
891285 1055 1592 2505 2818 3900 4319 5169 5760 6580 6798 7562 8062 8567  8955
891297 2341 2989 4109 4156 6135 8905  9272
891309 1291 1511 1562 2134 2364 2397 3524 3697 4444 4764 5153 5726 7178 7381 8895  9417
891321 891 1948 2221 3039 4588 5070 5439 5572 5840 6685 7187 7840 8122  9037
891333 307 593 2852 4401 4609 5823 6867  9373
891345 77 424 3178 3204 5191 5360  7576
891357 853 2351 2731 8399 8626 8920  8936
891369 2207 2341 2411 3387 3453 3529 3537 3730 4432 5552 6464 8832  9175
891381 110 664 721 2380 2703 3545 3721  7358
891393 203 2226 2557 3334 4090 5509 5700 6747 7052 7877  8576
891405 2226 3946 4542 5838 6326 6678  7428
891417 704 2789 2996 3708 4960 5360 6256 6476 7859 8349 9451 9633  9686
891429 2121 2890 3809 4344 4840 5026 5362 5688 6068 7025 7471  7706
891441 15 1953 2060 4335 5009 8115 8483  9263
891453 111 1338 3782 5439 6049 7163 7361 8353 9175 9729  9747
891465 545 984 2285 2931 4802 5338 5522 6115 7690 7820  9805
891477 86 886 1659 3034 3774 5448 5989 6012 6927 8765 8851  9120
891489 1956 2972 3656 3890 5201 5465 7140 8419  9362
891501 999 1158 2133 2559 4109 5572 6258 8016 8511  9434
891513 2106 4236 4286 4785 5347 8771  9847
891525 240 917 3035 4366 6318 9325 9759  9971
891537 2241 2900 3490 3612 5601 6911 7074  7356
891549 1017 3694 5421 5466 5635 7729  8917
891561 813 1456 1904 2489 5601 5958 8676 8709 8974  9647
891573 1744 1883 2363 3888 5200 5589 6745  7382
891585 881 3793 4528 5224 5376 7526  8905
891597 336 2946 6707 7495  9037
891609 303 589 1552 4506 6643 7008 7720  9373
891621 28 3433 3612 4846 5572 5874 6521 7537 7739  9294
891633 14 3190 3551 4277 5456 6126 7316 7623 8013 8297  8924
891645 2385 3025 3352 3551 4363 5026 5362 5688 6091 6233 6416 7471 7706 7852  9369
891657 899 1189 1904 2864 4060 4157 4338 4960 5063 5075 5115 5368 5715 6583 7720  7985
891669 2341 2852 3381 4869 5351 6900  9919
891681 2150 3430 3827 4032 5799 6594 8059 8111  9130
891693 448 621 829 1777 1793 2341 2559 3525 3825 5207 7140 9570 9768  9771
891705 926 1904 4665 4928 5005 5376 5635 6084 6111 6643 8213 8236 8633  9552
891717 542 1398 3196 3535 3774 4411 5488 6005 6963 7309  9922
891729 305 2700 3951 4769 6008  9722
891741 90 470 1176 2046 3855 5702 7137 7510 8057 8731  9495
891753 343 482 2120 2172 3656 4069 4592 6930 7472 8987  9667
891765 822 3255 3796 5942 8689 8943  9345
891777 690 1122 2147 3296 3394 3802 4265 4349 4999 6315 7537 7639 8233 8253 8757  9040
891789 755 1228 2264 3437 4628 4976 5160 5715 6489 7463  7530
891801 281 595 1640 1859 2366 2523 2598 4444 5795 6186  8660
891813 137 746 1257 1784 2660 2990 5201 5552 6239 6418 6543 7903 8926 9100  9444
891825 1151 1478 3316 3756 3919 4257 4747 5762 5886 6470  8989
891837 451 493 1776 1898 2307 2512 2754 3252 4135 6593 6839 6929 7177 9123 9740  9784
891849 104 1550 1769 3627 3694 4755 7154  9107
891861 2079 2093 3709 3952 5006 5335 7004 7668 8214 8614 9417 9613  9793
891873 408 1113 4589 4999 6220 7370 8204  8382
891885 56 664 2700 4449 5154 5580 8034  8360
891897 694 2489 2731 3134 3902 4095 4527 5014  8968
891909 593 912 1680 4401 4609  9373
891921 141 718 2520 3107 6287 8370 9285 9473  9588
891933 2557 2706 3875 4942 6011 8086 9679  9691
891945 301 531 609 1152 1620 2240 2601 3695 4317 4393 5031 5826 7329 8802 9079  9951
891957 270 636 879 2082 2190 2883 3805 5174 5819 7153 7528 7820 7946 8573 9158  9165
891969 74 1049 3483  3723
891981 1131 1883 2665 3475 3639 4822 5218 6628 7098 7362 7577 8369  8565
891993 321 1298 4019 5012 7217 7382 8158  9905
892000 628 703 1100 1839 2046 2907 3202 4510 5459 5927 6218 6284 6455 6609 7678 8042  9462